Ion = Helium      , Mass = 4.002602
Tgt =  C +  H +  O (Solid), Density = 1.32 g/cm3
Stopping Units = MeV/mm       
Energy(keV)  S(Elec)    S(Nuc)
1.000E+02   1.614E+02  2.167E+00 
2.000E+02   2.197E+02  1.255E+00 
3.000E+02   2.550E+02  9.032E-01 
4.000E+02   2.756E+02  7.130E-01 
5.000E+02   2.860E+02  5.924E-01 
6.000E+02   2.895E+02  5.087E-01 
7.000E+02   2.884E+02  4.469E-01 
8.000E+02   2.843E+02  3.993E-01 
9.000E+02   2.785E+02  3.614E-01 
1.000E+03   2.717E+02  3.304E-01 
1.100E+03   2.644E+02  3.047E-01 
1.200E+03   2.570E+02  2.829E-01 
1.300E+03   2.497E+02  2.641E-01 
1.400E+03   2.425E+02  2.479E-01 
1.500E+03   2.356E+02  2.336E-01 
1.600E+03   2.290E+02  2.210E-01 
1.700E+03   2.226E+02  2.098E-01 
1.800E+03   2.166E+02  1.997E-01 
1.900E+03   2.108E+02  1.906E-01 
2.000E+03   2.054E+02  1.823E-01 
2.100E+03   2.001E+02  1.748E-01 
2.200E+03   1.952E+02  1.679E-01 
2.300E+03   1.904E+02  1.615E-01 
2.400E+03   1.859E+02  1.557E-01 
2.500E+03   1.816E+02  1.503E-01 
2.600E+03   1.775E+02  1.452E-01 
2.700E+03   1.736E+02  1.405E-01 
2.800E+03   1.698E+02  1.362E-01 
2.900E+03   1.662E+02  1.321E-01 
3.000E+03   1.628E+02  1.282E-01 
3.100E+03   1.595E+02  1.246E-01 
3.200E+03   1.563E+02  1.212E-01 
3.300E+03   1.533E+02  1.180E-01 
3.400E+03   1.504E+02  1.150E-01 
3.500E+03   1.476E+02  1.121E-01 
3.600E+03   1.449E+02  1.094E-01 
3.700E+03   1.423E+02  1.068E-01 
3.800E+03   1.398E+02  1.043E-01 
3.900E+03   1.374E+02  1.020E-01 
4.000E+03   1.351E+02  9.972E-02 
4.100E+03   1.329E+02  9.759E-02 
4.200E+03   1.307E+02  9.555E-02 
4.300E+03   1.286E+02  9.360E-02 
4.400E+03   1.266E+02  9.173E-02 
4.500E+03   1.247E+02  8.994E-02 
4.600E+03   1.228E+02  8.822E-02 
4.700E+03   1.210E+02  8.657E-02 
4.800E+03   1.192E+02  8.498E-02 
4.900E+03   1.175E+02  8.345E-02 
5.000E+03   1.159E+02  8.198E-02 
5.100E+03   1.143E+02  8.057E-02 
5.200E+03   1.127E+02  7.920E-02 
5.300E+03   1.112E+02  7.789E-02 
5.400E+03   1.097E+02  7.661E-02 
5.500E+03   1.083E+02  7.539E-02 
5.600E+03   1.069E+02  7.420E-02 
5.700E+03   1.055E+02  7.305E-02 
5.800E+03   1.042E+02  7.194E-02 
5.900E+03   1.030E+02  7.086E-02 
6.000E+03   1.017E+02  6.982E-02 
6.100E+03   1.005E+02  6.881E-02 
6.200E+03   9.931E+01  6.783E-02 
6.300E+03   9.816E+01  6.688E-02 
6.400E+03   9.703E+01  6.595E-02 
6.500E+03   9.594E+01  6.506E-02 
6.600E+03   9.487E+01  6.419E-02 
6.700E+03   9.382E+01  6.334E-02 
6.800E+03   9.280E+01  6.251E-02 
6.900E+03   9.180E+01  6.171E-02 
7.000E+03   9.083E+01  6.093E-02 
7.100E+03   8.988E+01  6.017E-02 
7.200E+03   8.895E+01  5.943E-02 
7.300E+03   8.804E+01  5.871E-02 
7.400E+03   8.715E+01  5.801E-02 
7.500E+03   8.628E+01  5.732E-02 
7.600E+03   8.543E+01  5.666E-02 
7.700E+03   8.459E+01  5.600E-02 
7.800E+03   8.378E+01  5.537E-02 
7.900E+03   8.298E+01  5.475E-02 
8.000E+03   8.220E+01  5.414E-02 
8.100E+03   8.160E+01  5.355E-02 
8.200E+03   8.102E+01  5.297E-02 
8.300E+03   8.044E+01  5.240E-02 
8.400E+03   7.985E+01  5.185E-02 
8.500E+03   7.927E+01  5.131E-02 
8.600E+03   7.869E+01  5.078E-02 
8.700E+03   7.810E+01  5.026E-02 
8.800E+03   7.752E+01  4.975E-02 
8.900E+03   7.693E+01  4.926E-02 
9.000E+03   7.635E+01  4.877E-02 
9.100E+03   7.577E+01  4.830E-02 
9.200E+03   7.518E+01  4.783E-02 
9.300E+03   7.460E+01  4.737E-02 
9.400E+03   7.402E+01  4.692E-02 
9.500E+03   7.343E+01  4.649E-02 
9.600E+03   7.285E+01  4.605E-02 
9.700E+03   7.227E+01  4.563E-02 
9.800E+03   7.170E+01  4.522E-02 
9.900E+03   7.114E+01  4.481E-02 
1.000E+04   7.058E+01  4.441E-02 
